Sept. 10, 2025   18:23:30
A.C. Impedance
File: small device 2 ch 1 eis day 0.bin
Data Source:  Experiment
Instrument Model:  CHI660E
Header: 
Note: 

Init E (V) = 0
High Frequency (Hz) = 1e+5
Low Frequency (Hz) = 0.1
Imp SF
Amplitude (V) = 0.05
Quiet Time (sec) = 2
Cycles (.1-1Hz) = 1
Cycles (.01-.1Hz) = 1

Freq/Hz, Z'/ohm, Z"/ohm, Z/ohm, Phase/deg

9.995e+4, -1.849e+2, -5.579e+3, 5.582e+3, -91.9
8.252e+4, -4.472e+2, -6.847e+3, 6.862e+3, -93.7
6.812e+4, -8.049e+2, -8.420e+3, 8.458e+3, -95.5
5.625e+4, -1.317e+3, -1.046e+4, 1.054e+4, -97.2
4.644e+4, -2.003e+3, -1.306e+4, 1.321e+4, -98.7
3.833e+4, -2.926e+3, -1.646e+4, 1.672e+4, -100.1
3.164e+4, -4.088e+3, -2.092e+4, 2.132e+4, -101.1
2.612e+4, -5.450e+3, -2.683e+4, 2.737e+4, -101.5
2.153e+4, -6.864e+3, -3.457e+4, 3.525e+4, -101.2
1.777e+4, -8.047e+3, -4.460e+4, 4.532e+4, -100.2
1.470e+4, -8.545e+3, -5.738e+4, 5.801e+4, -98.5
1.211e+4, -7.618e+3, -7.323e+4, 7.363e+4, -95.9
1.001e+4, -3.958e+3, -9.149e+4, 9.158e+4, -92.5
8.252e+3, 2.894e+3, -1.124e+5, 1.125e+5, -88.5
6.812e+3, 1.286e+4, -1.365e+5, 1.371e+5, -84.6
5.625e+3, 2.625e+4, -1.628e+5, 1.649e+5, -80.8
4.643e+3, 4.305e+4, -1.905e+5, 1.953e+5, -77.3
3.833e+3, 6.289e+4, -2.191e+5, 2.279e+5, -74.0
3.164e+3, 8.494e+4, -2.486e+5, 2.627e+5, -71.1
2.612e+3, 1.084e+5, -2.800e+5, 3.002e+5, -68.8
2.153e+3, 1.328e+5, -3.142e+5, 3.412e+5, -67.1
1.777e+3, 1.576e+5, -3.530e+5, 3.865e+5, -65.9
1.470e+3, 1.829e+5, -3.986e+5, 4.385e+5, -65.3
1.211e+3, 2.093e+5, -4.528e+5, 4.988e+5, -65.2
1.001e+3, 2.414e+5, -5.162e+5, 5.699e+5, -64.9
8.252e+2, 2.789e+5, -5.911e+5, 6.536e+5, -64.7
6.836e+2, 3.191e+5, -6.816e+5, 7.526e+5, -64.9
5.615e+2, 3.642e+5, -7.903e+5, 8.702e+5, -65.3
4.639e+2, 4.171e+5, -9.195e+5, 1.010e+6, -65.6
3.809e+2, 4.807e+5, -1.069e+6, 1.172e+6, -65.8
3.174e+2, 5.602e+5, -1.244e+6, 1.364e+6, -65.8
2.588e+2, 6.592e+5, -1.445e+6, 1.589e+6, -65.5
2.148e+2, 7.826e+5, -1.676e+6, 1.850e+6, -65.0
1.758e+2, 9.330e+5, -1.934e+6, 2.147e+6, -64.2
1.465e+2, 1.111e+6, -2.213e+6, 2.476e+6, -63.4
1.221e+2, 1.337e+6, -2.531e+6, 2.863e+6, -62.1
9.766e+1, 1.609e+6, -2.877e+6, 3.296e+6, -60.8
8.254e+1, 1.918e+6, -3.239e+6, 3.764e+6, -59.4
6.812e+1, 2.276e+6, -3.625e+6, 4.280e+6, -57.9
5.625e+1, 2.681e+6, -4.025e+6, 4.836e+6, -56.3
4.642e+1, 3.135e+6, -4.437e+6, 5.433e+6, -54.8
3.831e+1, 3.627e+6, -4.861e+6, 6.065e+6, -53.3
3.162e+1, 4.142e+6, -5.295e+6, 6.723e+6, -52.0
2.609e+1, 4.661e+6, -5.751e+6, 7.403e+6, -51.0
2.154e+1, 5.172e+6, -6.251e+6, 8.114e+6, -50.4
1.778e+1, 5.662e+6, -6.823e+6, 8.866e+6, -50.3
1.468e+1, 6.129e+6, -7.502e+6, 9.687e+6, -50.8
1.212e+1, 6.589e+6, -8.347e+6, 1.063e+7, -51.7
1.000e+1, 7.038e+6, -9.366e+6, 1.172e+7, -53.1
8.257e+0, 7.479e+6, -1.062e+7, 1.299e+7, -54.8
6.818e+0, 7.942e+6, -1.222e+7, 1.457e+7, -57.0
5.625e+0, 8.393e+6, -1.397e+7, 1.630e+7, -59.0
5.000e+0, 8.959e+6, -1.635e+7, 1.864e+7, -61.3
3.750e+0, 9.754e+6, -1.978e+7, 2.205e+7, -63.7
3.000e+0, 1.071e+7, -2.379e+7, 2.609e+7, -65.8
2.500e+0, 1.178e+7, -2.797e+7, 3.034e+7, -67.2
2.143e+0, 1.287e+7, -3.214e+7, 3.462e+7, -68.2
1.875e+0, 1.431e+7, -3.714e+7, 3.980e+7, -68.9
1.500e+0, 1.634e+7, -4.327e+7, 4.625e+7, -69.3
1.250e+0, 1.930e+7, -5.139e+7, 5.489e+7, -69.4
1.000e+0, 2.415e+7, -6.165e+7, 6.621e+7, -68.6
8.333e-1, 3.067e+7, -7.306e+7, 7.923e+7, -67.2
6.818e-1, 3.843e+7, -8.560e+7, 9.383e+7, -65.8
5.556e-1, 4.739e+7, -9.863e+7, 1.094e+8, -64.3
4.687e-1, 5.814e+7, -1.123e+8, 1.264e+8, -62.6
3.846e-1, 7.155e+7, -1.267e+8, 1.455e+8, -60.5
3.191e-1, 8.807e+7, -1.415e+8, 1.667e+8, -58.1
2.632e-1, 1.087e+8, -1.566e+8, 1.906e+8, -55.2
2.143e-1, 1.329e+8, -1.709e+8, 2.164e+8, -52.1
1.786e-1, 1.600e+8, -1.832e+8, 2.433e+8, -48.9
1.471e-1, 1.901e+8, -1.933e+8, 2.711e+8, -45.5
1.210e-1, 2.225e+8, -2.003e+8, 2.994e+8, -42.0
1.000e-1, 2.573e+8, -2.041e+8, 3.284e+8, -38.4
